Wavelength [nm];Reflectivity
302;0.029582
304;0.029759
306;0.029935
308;0.030112
310;0.030288
312;0.030465
314;0.030641
316;0.030818
318;0.030994
320;0.031171
322;0.031347
324;0.031523
326;0.0317
328;0.031877
330;0.032053
332;0.032229
334;0.032406
336;0.032582
338;0.032759
340;0.032935
342;0.033112
344;0.033288
346;0.033465
348;0.033641
350;0.033818
352;0.033994
354;0.034171
356;0.034347
358;0.034524
360;0.0347
362;0.034876
364;0.035053
366;0.035229
368;0.035406
370;0.035582
372;0.035759
374;0.035935
376;0.036112
378;0.036288
380;0.036465
382;0.036641
384;0.036818
386;0.036994
388;0.037171
390;0.037347
392;0.037524
394;0.0377
396;0.037876
398;0.038053
400;0.038229
402;0.038406
404;0.038533
406;0.03862
408;0.038773
410;0.038887
412;0.038945
414;0.039064
416;0.039233
418;0.039298
420;0.039397
422;0.03953
424;0.039714
426;0.039794
428;0.039864
430;0.04014
432;0.040143
434;0.04029
436;0.040321
438;0.040495
440;0.040597
442;0.040698
444;0.040786
446;0.040926
448;0.041072
450;0.041194
452;0.041294
454;0.041362
456;0.041487
458;0.041629
460;0.04179
462;0.04189
464;0.041996
466;0.042063
468;0.042185
470;0.042327
472;0.042435
474;0.042597
476;0.042674
478;0.042768
480;0.042894
482;0.043055
484;0.0431
486;0.043268
488;0.043348
490;0.043485
492;0.043605
494;0.043706
496;0.04399
498;0.044595
500;0.045412
502;0.046444
504;0.047634
506;0.048893
508;0.050719
510;0.053314
512;0.056175
514;0.059142
516;0.062804
518;0.0671
520;0.071183
522;0.075386
524;0.080256
526;0.084949
528;0.089023
530;0.092914
532;0.096696
534;0.099535
536;0.10169
538;0.10353
540;0.10528
542;0.1068
544;0.10811
546;0.10912
548;0.1098
550;0.11022
552;0.11064
554;0.1111
556;0.11123
558;0.11076
560;0.10975
562;0.10843
564;0.10682
566;0.10507
568;0.1029
570;0.10024
572;0.097302
574;0.094614
576;0.091871
578;0.08903
580;0.086963
582;0.085306
584;0.083636
586;0.081922
588;0.080257
590;0.078833
592;0.07765
594;0.076732
596;0.075929
598;0.075385
600;0.074901
602;0.074273
604;0.073543
606;0.072815
608;0.072092
610;0.071235
612;0.070351
614;0.06938
616;0.068276
618;0.067068
620;0.065917
622;0.06495
624;0.064216
626;0.063698
628;0.063276
630;0.062904
632;0.062538
634;0.062075
636;0.06146
638;0.060592
640;0.0595
642;0.058202
644;0.056705
646;0.055117
648;0.05356
650;0.05212
652;0.051095
654;0.05046
656;0.049945
658;0.049367
660;0.04872
662;0.047927
664;0.04712
666;0.046474
668;0.04571
670;0.04508
672;0.04474
674;0.044548
676;0.04437
678;0.044425
680;0.04489
682;0.046093
684;0.04799
686;0.050242
688;0.052782
690;0.056244
692;0.061872
694;0.069404
696;0.077736
698;0.087253
700;0.098682
702;0.11099
704;0.1249
706;0.14113
708;0.15674
710;0.17197
712;0.18675
714;0.20243
716;0.21793
718;0.23376
720;0.25036
722;0.26632
724;0.28417
726;0.30119
728;0.31709
730;0.33283
732;0.34914
734;0.36304
736;0.3755
738;0.38774
740;0.39914
742;0.41046
744;0.42119
746;0.42954
748;0.43695
750;0.44385
752;0.44958
754;0.45419
756;0.45802
758;0.46111
760;0.46323
762;0.4653
764;0.46748
766;0.46966
768;0.47151
770;0.47291
772;0.47387
774;0.47493
776;0.47573
778;0.4761
780;0.47652
782;0.47723
784;0.47798
786;0.4788
788;0.4796
790;0.48016
792;0.48067
794;0.48147
796;0.48245
798;0.48347
800;0.48432
820;0.48909
840;0.49366
860;0.49974
880;0.5042
900;0.5079
920;0.51061
940;0.50744
960;0.49742
980;0.49516
1000;0.50115
1020;0.50945
1040;0.51813
1060;0.52487
1080;0.52411
1100;0.52243
1120;0.51859
1140;0.50372
1160;0.47896
1180;0.46524
1200;0.46688
1220;0.47635
1240;0.48812
1260;0.48922
1280;0.48581
1300;0.4764
1320;0.45359
1340;0.419
1360;0.38955
1380;0.32801
1400;0.23055
1420;0.16814
1440;0.14975
1460;0.14648
1480;0.15832
1500;0.1798
1520;0.20617
1540;0.2315
1560;0.25381
1580;0.27655
1600;0.29285
1620;0.30674
1640;0.31808
1660;0.32257
1680;0.32579
1700;0.32332
1720;0.31501
1740;0.3048
1760;0.28774
1780;0.27768
1800;0.2765
1820;0.27127
1840;0.25853
1860;0.21605
1880;0.13258
1900;0.072879
1920;0.051658
1940;0.050554
1960;0.055539
1980;0.065224
2000;0.073972
2020;0.087469
2040;0.097152
2060;0.10898
2080;0.12315
2100;0.13624
2120;0.14881
2140;0.1576
2160;0.16431
2180;0.16902
2200;0.1709
2220;0.17387
2240;0.17091
2260;0.16356
2280;0.15572
2300;0.14609
2320;0.13389
2340;0.12382
2360;0.11704
2380;0.10618
2400;0.097125
2420;0.08753
2440;0.079555
2460;0.067907
2480;0.06236
2500;0.062297
2520;0.060059
2540;0.057821
2560;0.055583
2580;0.053345
2600;0.051107
2620;0.048869
2640;0.046631
2660;0.044393
2680;0.042155
2700;0.039917
2720;0.037679
2740;0.035441
2760;0.033203
2780;0.030965
2800;0.028727
2820;0.026489
2840;0.024251
2860;0.022013
2880;0.019775
2900;0.017537
2920;0.015299
2940;0.013061
2960;0.010823
2980;0.008585
3000;0.008779
3020;0.008573
3040;0.008594
3060;0.008885
3080;0.008918
3100;0.009026
3120;0.009195
3140;0.009038
3160;0.00937
3180;0.009616
3200;0.009639
3220;0.00981
3240;0.009728
3260;0.009783
3280;0.009784
3300;0.009731
3320;0.009696
3340;0.009818
3360;0.010329
3380;0.014557
3400;0.014461
3420;0.013008
3440;0.01188
3460;0.012274
3480;0.015177
3500;0.013553
3520;0.013745
3540;0.013767
3560;0.013887
3580;0.014149
3600;0.014365
3620;0.014742
3640;0.014834
3660;0.015305
3680;0.015546
3700;0.015898
3720;0.016456
3740;0.016774
3760;0.01739
3780;0.01753
3800;0.017766
3820;0.017989
3840;0.01814
3860;0.018117
3880;0.018114
3900;0.018113
3920;0.01815
3940;0.017896
3960;0.017893
3980;0.017926
4000;0.017815
4020;0.017831
4040;0.017757
4060;0.017674
4080;0.017467
4100;0.017382
4120;0.017263
4140;0.016881
4160;0.016923
4180;0.016367
4200;0.0161
4220;0.016161
4240;0.015878
4260;0.015735
4280;0.015446
4300;0.015343
4320;0.015178
4340;0.015039
4360;0.014663
4380;0.014543
4400;0.014353
4420;0.014204
4440;0.014062
4460;0.013929
4480;0.013674
4500;0.013547
4520;0.013415
4540;0.013319
4560;0.01292
4580;0.013111
4600;0.013009
4620;0.012874
4640;0.012972
4660;0.01283
4680;0.012823
4700;0.012899
4720;0.012943
4740;0.012978
4760;0.012968
4780;0.013032
4800;0.012943
4820;0.01301
4840;0.013167
4860;0.013085
4880;0.013315
4900;0.013344
4920;0.013504
4940;0.013567
4960;0.013572
4980;0.014174
5000;0.014546
5100;0.014488
5200;0.014077
5300;0.013248
5400;0.011803
5500;0.009705
5600;0.009875
5700;0.008767
5800;0.008181
5900;0.008067
6000;0.008666
6100;0.009062
6200;0.008723
6300;0.008144
6400;0.008232
6500;0.008196
6600;0.008062
6700;0.00776
6800;0.007399
6900;0.007442
7000;0.007096
7100;0.006731
7200;0.006672
7300;0.006389
7400;0.006064
7500;0.006453
7600;0.006086
7700;0.006291
7800;0.007158
7900;0.008259
8000;0.008871
8100;0.009666
8200;0.010329
8300;0.01092
8400;0.012023
8500;0.01336
8600;0.014959
8700;0.018672
8800;0.024778
8900;0.030666
9000;0.032484
9100;0.032141
9200;0.030587
9300;0.029203
9400;0.02885
9500;0.027707
9600;0.025489
9700;0.022684
9800;0.020389
9900;0.019651
10000;0.019974
10100;0.020079
10200;0.020843
10300;0.021249
10400;0.021002
10500;0.020228
10600;0.019345
10700;0.018385
10800;0.017203
10900;0.016009
11000;0.01611
11100;0.015653
11200;0.014993
11300;0.014083
11400;0.013357
11500;0.012467
11600;0.011721
11700;0.011182
11800;0.011031
11900;0.011048
12000;0.010883
12100;0.011076
12200;0.01165
12300;0.011664
12400;0.011997
12500;0.011817
12600;0.011826
12700;0.011651
12800;0.011443
12900;0.011351
13000;0.01073
13100;0.01092
13200;0.010872
13300;0.010805
13400;0.010923
13500;0.011347
13600;0.011369
13700;0.011143
13800;0.01136
13900;0.011136
14000;0.010448
